wavelength, Radiance (1), Radiance (2), Radiance (0.5)
4999.998,2.82e-13,3.58e-13,2.3e-13
2500.0,3.7e-12,4.96e-12,2.63e-12
1666.666,2.24e-11,2.79e-11,1.58e-11
1250.0,7.68e-11,9.18e-11,5.43e-11
1000.0,2.14e-10,2.31e-10,1.77e-10
833.333,4.76e-10,4.82e-10,4.51e-10
714.286,8.86e-10,8.88e-10,8.77e-10
625.0,1.5e-09,1.51e-09,1.5e-09
555.555,2.4e-09,2.4e-09,2.4e-09
500.0,3.63e-09,3.63e-09,3.63e-09
454.545,5.28e-09,5.29e-09,5.28e-09
416.667,7.45e-09,7.45e-09,7.44e-09
384.615,1.02e-08,1.02e-08,1.02e-08
357.143,1.36e-08,1.37e-08,1.36e-08
333.333,1.79e-08,1.79e-08,1.79e-08
312.5,2.3e-08,2.31e-08,2.3e-08
294.118,2.92e-08,2.92e-08,2.92e-08
277.778,3.65e-08,3.65e-08,3.65e-08
263.158,4.51e-08,4.51e-08,4.51e-08
250.0,5.51e-08,5.51e-08,5.51e-08
238.095,6.66e-08,6.66e-08,6.66e-08
227.273,7.98e-08,7.99e-08,7.98e-08
217.391,9.49e-08,9.49e-08,9.49e-08
208.333,1.12e-07,1.12e-07,1.12e-07
200.0,1.31e-07,1.31e-07,1.31e-07
192.308,1.53e-07,1.53e-07,1.53e-07
185.185,1.76e-07,1.76e-07,1.76e-07
178.571,2.03e-07,2.03e-07,2.03e-07
172.414,2.32e-07,2.32e-07,2.32e-07
166.667,2.65e-07,2.65e-07,2.65e-07
161.29,3e-07,3e-07,3e-07
156.25,3.39e-07,3.39e-07,3.39e-07
151.515,3.82e-07,3.82e-07,3.82e-07
147.059,4.28e-07,4.28e-07,4.28e-07
142.857,4.78e-07,4.78e-07,4.78e-07
138.889,5.32e-07,5.32e-07,5.32e-07
135.135,5.9e-07,5.9e-07,5.9e-07
131.579,6.53e-07,6.53e-07,6.53e-07
128.205,7.21e-07,7.21e-07,7.21e-07
125.0,7.94e-07,7.94e-07,7.94e-07
121.951,8.71e-07,8.71e-07,8.71e-07
119.048,9.54e-07,9.54e-07,9.54e-07
116.279,1.04e-06,1.04e-06,1.04e-06
113.636,1.14e-06,1.14e-06,1.14e-06
111.111,1.24e-06,1.24e-06,1.24e-06
108.696,1.34e-06,1.34e-06,1.34e-06
106.383,1.46e-06,1.46e-06,1.46e-06
104.167,1.58e-06,1.58e-06,1.58e-06
102.041,1.7e-06,1.7e-06,1.7e-06
100.0,1.84e-06,1.84e-06,1.84e-06
98.039,1.98e-06,1.98e-06,1.98e-06
96.154,2.12e-06,2.12e-06,2.12e-06
94.34,2.28e-06,2.28e-06,2.28e-06
92.593,2.44e-06,2.44e-06,2.44e-06
90.909,2.62e-06,2.62e-06,2.62e-06
89.286,2.8e-06,2.8e-06,2.8e-06
87.719,2.98e-06,2.98e-06,2.99e-06
86.207,3.18e-06,3.18e-06,3.18e-06
84.746,3.39e-06,3.39e-06,3.39e-06
83.333,3.6e-06,3.6e-06,3.6e-06
81.967,3.83e-06,3.83e-06,3.83e-06
80.645,4.06e-06,4.06e-06,4.06e-06
79.365,4.31e-06,4.31e-06,4.31e-06
78.125,4.56e-06,4.56e-06,4.56e-06
76.923,4.83e-06,4.83e-06,4.83e-06
75.758,5.11e-06,5.11e-06,5.11e-06
74.627,5.39e-06,5.39e-06,5.39e-06
73.529,5.69e-06,5.69e-06,5.69e-06
72.464,6e-06,6e-06,6e-06
71.429,6.32e-06,6.32e-06,6.32e-06
70.423,6.65e-06,6.65e-06,6.65e-06
69.444,6.99e-06,6.99e-06,6.99e-06
68.493,7.35e-06,7.35e-06,7.35e-06
67.568,7.72e-06,7.72e-06,7.72e-06
66.667,8.1e-06,8.1e-06,8.1e-06
65.789,8.49e-06,8.49e-06,8.49e-06
64.935,8.89e-06,8.89e-06,8.89e-06
64.103,9.31e-06,9.31e-06,9.31e-06
63.291,9.74e-06,9.74e-06,9.75e-06
62.5,1.02e-05,1.02e-05,1.02e-05
61.728,1.06e-05,1.06e-05,1.07e-05
60.976,1.11e-05,1.11e-05,1.11e-05
60.241,1.16e-05,1.16e-05,1.16e-05
59.524,1.21e-05,1.21e-05,1.21e-05
58.824,1.26e-05,1.26e-05,1.26e-05
58.14,1.32e-05,1.32e-05,1.32e-05
57.471,1.37e-05,1.37e-05,1.37e-05
56.818,1.43e-05,1.43e-05,1.43e-05
56.18,1.48e-05,1.48e-05,1.48e-05
55.556,1.54e-05,1.54e-05,1.54e-05
54.945,1.6e-05,1.6e-05,1.6e-05
54.348,1.66e-05,1.66e-05,1.66e-05
53.763,1.73e-05,1.73e-05,1.73e-05
53.191,1.79e-05,1.79e-05,1.79e-05
52.632,1.86e-05,1.86e-05,1.86e-05
52.083,1.93e-05,1.93e-05,1.93e-05
51.546,2e-05,2e-05,2e-05
51.02,2.07e-05,2.07e-05,2.07e-05
50.505,2.14e-05,2.14e-05,2.14e-05
50.0,2.22e-05,2.22e-05,2.22e-05
49.505,2.29e-05,2.29e-05,2.29e-05
49.02,2.37e-05,2.37e-05,2.37e-05
48.544,2.45e-05,2.45e-05,2.45e-05
48.077,2.53e-05,2.53e-05,2.53e-05
47.619,2.62e-05,2.62e-05,2.62e-05
47.17,2.7e-05,2.7e-05,2.7e-05
46.729,2.79e-05,2.79e-05,2.79e-05
46.296,2.88e-05,2.88e-05,2.88e-05
45.872,2.97e-05,2.97e-05,2.97e-05
45.455,3.06e-05,3.06e-05,3.06e-05
45.045,3.16e-05,3.16e-05,3.16e-05
44.643,3.25e-05,3.25e-05,3.25e-05
44.248,3.35e-05,3.35e-05,3.35e-05
43.86,3.45e-05,3.45e-05,3.45e-05
43.478,3.55e-05,3.55e-05,3.55e-05
43.103,3.65e-05,3.65e-05,3.66e-05
42.735,3.76e-05,3.76e-05,3.76e-05
42.373,3.87e-05,3.87e-05,3.87e-05
42.017,3.98e-05,3.98e-05,3.97e-05
41.667,4.09e-05,4.09e-05,4.09e-05
41.322,4.2e-05,4.2e-05,4.2e-05
40.984,4.31e-05,4.31e-05,4.31e-05
40.65,4.43e-05,4.43e-05,4.43e-05
40.323,4.55e-05,4.55e-05,4.55e-05
40.0,4.67e-05,4.67e-05,4.67e-05
39.683,4.79e-05,4.79e-05,4.79e-05
39.37,4.92e-05,4.92e-05,4.92e-05
39.063,5.04e-05,5.04e-05,5.04e-05
38.76,5.17e-05,5.17e-05,5.17e-05
38.462,5.3e-05,5.3e-05,5.3e-05
38.168,5.43e-05,5.43e-05,5.43e-05
37.879,5.57e-05,5.57e-05,5.56e-05
37.594,5.7e-05,5.7e-05,5.7e-05
37.313,5.84e-05,5.84e-05,5.84e-05
37.037,5.98e-05,5.98e-05,5.98e-05
36.765,6.12e-05,6.12e-05,6.12e-05
36.496,6.27e-05,6.27e-05,6.26e-05
36.232,6.41e-05,6.41e-05,6.41e-05
35.971,6.56e-05,6.56e-05,6.56e-05
35.714,6.71e-05,6.71e-05,6.71e-05
35.461,6.86e-05,6.86e-05,6.86e-05
35.211,7.01e-05,7.01e-05,7.01e-05
34.965,7.17e-05,7.17e-05,7.17e-05
34.722,7.33e-05,7.33e-05,7.33e-05
34.483,7.49e-05,7.49e-05,7.48e-05
34.247,7.65e-05,7.65e-05,7.64e-05
34.014,7.81e-05,7.81e-05,7.8e-05
33.784,7.97e-05,7.98e-05,7.97e-05
33.557,8.14e-05,8.14e-05,8.14e-05
33.333,8.31e-05,8.31e-05,8.31e-05
33.113,8.48e-05,8.48e-05,8.48e-05
32.895,8.66e-05,8.66e-05,8.66e-05
32.68,8.83e-05,8.83e-05,8.83e-05
32.468,9.01e-05,9.01e-05,9e-05
32.258,9.18e-05,9.19e-05,9.17e-05
32.051,9.36e-05,9.37e-05,9.35e-05
31.847,9.55e-05,9.55e-05,9.54e-05
31.646,9.73e-05,9.74e-05,9.73e-05
31.447,9.92e-05,9.92e-05,9.91e-05
31.25,0.000101,0.000101,0.000101
31.056,0.000103,0.000103,0.000103
30.864,0.000105,0.000105,0.000105
30.675,0.000107,0.000107,0.000107
30.488,0.000109,0.000109,0.000109
30.303,0.000111,0.000111,0.000111
30.12,0.000113,0.000113,0.000113
29.94,0.000115,0.000115,0.000115
29.762,0.000117,0.000117,0.000117
29.586,0.000119,0.000119,0.000119
29.412,0.000121,0.000121,0.000121
29.24,0.000123,0.000123,0.000123
29.07,0.000125,0.000125,0.000125
28.902,0.000127,0.000127,0.000127
28.736,0.000129,0.000129,0.000129
28.571,0.000132,0.000132,0.000132
28.409,0.000134,0.000134,0.000134
28.249,0.000136,0.000136,0.000136
28.09,0.000138,0.000138,0.000138
27.933,0.00014,0.00014,0.00014
27.778,0.000142,0.000143,0.000142
27.624,0.000145,0.000145,0.000144
27.473,0.000147,0.000147,0.000146
27.322,0.000149,0.000149,0.000149
27.174,0.000152,0.000152,0.000151
27.027,0.000154,0.000154,0.000154
26.882,0.000156,0.000156,0.000156
26.738,0.000159,0.000159,0.000159
26.596,0.000161,0.000161,0.000161
26.455,0.000163,0.000163,0.000163
26.316,0.000166,0.000166,0.000165
26.178,0.000168,0.000168,0.000168
26.042,0.000171,0.000171,0.00017
25.907,0.000173,0.000173,0.000173
25.773,0.000175,0.000176,0.000175
25.641,0.000178,0.000178,0.000177
25.51,0.00018,0.000181,0.00018
25.381,0.000183,0.000183,0.000183
25.253,0.000186,0.000186,0.000186
25.126,0.000188,0.000188,0.000188
25.0,0.000191,0.000191,0.000191
24.876,0.000193,0.000193,0.000192
24.752,0.000195,0.000196,0.000194
24.631,0.000198,0.000198,0.000195
24.51,0.0002,0.000201,0.000196
24.39,0.000203,0.000203,0.000199
24.272,0.000205,0.000206,0.000202
24.155,0.000208,0.000209,0.000206
24.038,0.000211,0.000212,0.000211
23.923,0.000214,0.000214,0.000214
23.81,0.000217,0.000217,0.000217
23.697,0.00022,0.00022,0.000219
23.585,0.000222,0.000222,0.000222
23.474,0.000225,0.000225,0.000223
23.364,0.000227,0.000227,0.000223
23.256,0.00023,0.00023,0.000226
23.148,0.000232,0.000233,0.000229
23.041,0.000235,0.000236,0.000232
22.936,0.000238,0.000239,0.000236
22.831,0.00024,0.000241,0.000234
22.727,0.000243,0.000244,0.000237
22.624,0.000247,0.000247,0.000246
22.523,0.00025,0.00025,0.000248
22.422,0.000252,0.000253,0.00025
22.321,0.000254,0.000255,0.000245
22.222,0.000257,0.000258,0.000246
22.124,0.00026,0.000261,0.000257
22.026,0.000263,0.000264,0.000262
21.93,0.000267,0.000267,0.000266
21.834,0.00027,0.00027,0.000269
21.739,0.000272,0.000273,0.00027
21.645,0.000274,0.000275,0.000263
21.552,0.000274,0.000278,0.000249
21.459,0.000278,0.000281,0.000258
21.368,0.000283,0.000284,0.000278
21.277,0.000286,0.000287,0.000282
21.186,0.00029,0.000291,0.000288
21.097,0.000292,0.000293,0.000287
21.008,0.000292,0.000296,0.000272
20.921,0.00029,0.000298,0.000246
20.833,0.000294,0.000301,0.000253
20.747,0.000302,0.000305,0.000286
20.661,0.000307,0.000308,0.000301
20.576,0.000307,0.00031,0.000288
20.492,0.000302,0.000313,0.000251
20.408,0.000307,0.000316,0.000263
20.325,0.000317,0.000319,0.000302
20.243,0.000312,0.000322,0.000274
20.161,0.000299,0.000324,0.000219
20.08,0.000301,0.000327,0.000218
20.0,0.000319,0.000331,0.000274
19.92,0.000333,0.000335,0.000325
19.841,0.000336,0.000338,0.000327
19.763,0.000339,0.000341,0.00033
19.685,0.000339,0.000343,0.000316
19.608,0.000339,0.000346,0.000305
19.531,0.000335,0.000349,0.000286
19.455,0.000339,0.000352,0.000291
19.38,0.000354,0.000356,0.000343
19.305,0.000359,0.000359,0.000357
19.231,0.000357,0.000362,0.000339
19.157,0.000348,0.000364,0.000287
19.084,0.000355,0.000367,0.00031
19.011,0.000365,0.000371,0.000342
18.939,0.000345,0.000372,0.000274
18.868,0.000312,0.000372,0.000199
18.797,0.000307,0.000374,0.000192
18.727,0.000339,0.000379,0.000251
18.657,0.000362,0.000384,0.000304
18.587,0.000338,0.000384,0.000249
18.519,0.000334,0.000387,0.000237
18.45,0.000349,0.000391,0.000256
18.382,0.000366,0.000396,0.000296
18.315,0.000396,0.000401,0.000377
18.248,0.00039,0.000403,0.000351
18.182,0.000383,0.000405,0.000322
18.116,0.000358,0.000405,0.000267
18.051,0.000361,0.000408,0.00027
17.986,0.000358,0.00041,0.000265
17.921,0.000326,0.000409,0.000209
17.857,0.000303,0.000408,0.000173
17.794,0.000334,0.000414,0.000225
17.73,0.000371,0.000422,0.000274
17.668,0.000388,0.000427,0.000308
17.606,0.000427,0.000434,0.000404
17.544,0.000426,0.000437,0.000395
17.483,0.000381,0.000434,0.000291
17.422,0.000369,0.000435,0.000268
17.361,0.000418,0.000444,0.000367
17.301,0.000407,0.000445,0.000341
17.241,0.000422,0.000449,0.000365
17.182,0.000429,0.000453,0.000377
17.123,0.000418,0.000453,0.000354
17.065,0.000401,0.000452,0.000338
17.007,0.000381,0.00045,0.000307
16.949,0.000427,0.000461,0.000384
16.892,0.000464,0.00047,0.000448
16.835,0.000463,0.000472,0.000442
16.779,0.000453,0.000472,0.00043
16.722,0.000442,0.000472,0.000411
16.667,0.000447,0.000476,0.000407
16.611,0.000451,0.000478,0.000417
16.556,0.000455,0.00048,0.000429
16.502,0.00045,0.00048,0.000426
16.447,0.000448,0.000481,0.000424
16.393,0.000446,0.000483,0.000417
16.34,0.000453,0.000488,0.000422
16.287,0.000477,0.000496,0.000458
16.234,0.000498,0.000504,0.000491
16.181,0.000502,0.000507,0.000497
16.129,0.000492,0.000506,0.000477
16.077,0.000489,0.000507,0.000475
16.026,0.000502,0.000512,0.000493
15.974,0.000516,0.000519,0.000512
15.924,0.000516,0.00052,0.000514
15.873,0.00052,0.000523,0.000518
15.823,0.000525,0.000527,0.000524
15.773,0.00053,0.000531,0.000529
15.723,0.000534,0.000534,0.000533
15.674,0.000537,0.000537,0.000536
15.625,0.00054,0.00054,0.00054
15.576,0.000543,0.000543,0.000543
15.528,0.000546,0.000546,0.000546
15.48,0.000549,0.00055,0.000549
15.432,0.000553,0.000553,0.000553
15.385,0.000556,0.000556,0.000556
15.337,0.000558,0.000558,0.000558
15.291,0.000561,0.000561,0.000561
15.244,0.000563,0.000563,0.000563
15.198,0.000566,0.000566,0.000566
15.152,0.000569,0.000569,0.000569
15.106,0.000572,0.000572,0.000572
15.06,0.000575,0.000575,0.000575
15.015,0.000578,0.000578,0.000578
14.97,0.000582,0.000582,0.000582
14.925,0.000584,0.000584,0.000584
14.881,0.000586,0.000586,0.000586
14.837,0.000588,0.000588,0.000588
14.793,0.000591,0.000591,0.00059
14.749,0.000593,0.000593,0.000593
14.706,0.000596,0.000596,0.000596
14.663,0.000598,0.000598,0.000598
14.62,0.000601,0.000601,0.000601
14.577,0.000603,0.000603,0.000603
14.535,0.000606,0.000606,0.000606
14.493,0.000608,0.000608,0.000608
14.451,0.00061,0.00061,0.00061
14.409,0.000612,0.000612,0.000612
14.368,0.000614,0.000615,0.000614
14.327,0.000616,0.000616,0.000615
14.286,0.000617,0.000617,0.000616
14.245,0.000619,0.00062,0.000619
14.205,0.000621,0.000622,0.000619
14.164,0.00062,0.000624,0.000618
14.124,0.000617,0.000622,0.000615
14.085,0.000612,0.000619,0.000608
14.045,0.000608,0.00062,0.000602
14.006,0.000605,0.00062,0.000596
13.966,0.000593,0.000612,0.000585
13.928,0.000614,0.000625,0.00061
13.889,0.000634,0.000638,0.000633
13.85,0.00058,0.000608,0.00057
13.812,0.00052,0.000575,0.000499
13.774,0.000487,0.000559,0.00046
13.736,0.00052,0.000581,0.000493
13.699,0.000575,0.000615,0.000549
13.661,0.000567,0.000608,0.000546
13.624,0.000542,0.000591,0.000524
13.587,0.000542,0.000592,0.000524
13.55,0.000556,0.000601,0.000538
13.514,0.000593,0.000626,0.000576
13.477,0.000574,0.00062,0.00055
13.441,0.000514,0.000591,0.000473
13.405,0.000471,0.000563,0.000427
13.369,0.000454,0.000556,0.000405
13.333,0.000426,0.000539,0.000374
13.298,0.00042,0.000539,0.000362
13.263,0.000454,0.000568,0.000385
13.228,0.000413,0.000537,0.000349
13.193,0.000304,0.000461,0.000245
13.158,0.000258,0.000437,0.000189
13.123,0.000226,0.000416,0.000155
13.089,0.000196,0.000394,0.000127
13.055,0.00019,0.000394,0.000115
13.021,0.000226,0.000427,0.000138
12.987,0.000237,0.000437,0.000144
12.953,0.000166,0.000379,8.59e-05
12.92,0.000177,0.000392,9.17e-05
12.887,0.000283,0.000477,0.000177
12.853,0.000258,0.000455,0.000156
12.821,0.000171,0.000387,8.35e-05
12.788,0.000175,0.000386,8.97e-05
12.755,0.00027,0.000465,0.000168
12.723,0.000186,0.0004,9.44e-05
12.69,0.000119,0.000339,4.2e-05
12.658,0.000157,0.000361,8.58e-05
12.626,0.000258,0.000436,0.000186
12.594,0.000304,0.00049,0.000202
12.563,0.000322,0.00051,0.000209
12.531,0.000348,0.000525,0.000235
12.5,0.000258,0.000446,0.000165
12.469,0.000189,0.000397,0.0001
12.438,0.000234,0.000432,0.000138
12.407,0.000185,0.00039,9.74e-05
12.376,0.000207,0.000409,0.000112
12.346,0.000142,0.000348,6.45e-05
12.315,0.000128,0.000336,5.39e-05
12.285,0.000203,0.000407,0.000107
12.255,0.000163,0.000368,7.91e-05
12.225,9.98e-05,0.000305,3.3e-05
12.195,9.59e-05,0.0003,3.02e-05
12.165,9.52e-05,0.0003,2.93e-05
12.136,0.000116,0.00032,4.31e-05
12.107,0.000151,0.000358,6.63e-05
12.077,0.000174,0.000378,8.37e-05
12.048,0.000114,0.000314,4.27e-05
12.019,8.83e-05,0.000288,2.49e-05
11.99,9.21e-05,0.000292,2.73e-05
11.962,0.000101,0.000303,3.3e-05
11.933,0.00012,0.000319,4.74e-05
11.905,0.000172,0.00037,8.48e-05
11.876,0.000133,0.000331,5.61e-05
11.848,9.38e-05,0.000288,3.08e-05
11.82,8.9e-05,0.000281,2.84e-05
11.792,0.000112,0.000305,4.56e-05
11.765,0.000191,0.00038,0.000105
11.737,0.000263,0.000449,0.00016
11.71,0.000218,0.00041,0.000122
11.682,0.000131,0.000321,5.81e-05
11.655,8.82e-05,0.000277,2.73e-05
11.628,8.91e-05,0.000277,2.78e-05
11.601,7.99e-05,0.000265,2.23e-05
11.574,0.000113,0.000301,4.52e-05
11.547,0.000114,0.000302,4.57e-05
11.521,7.77e-05,0.00026,2.14e-05
11.494,0.00011,0.000293,4.58e-05
11.468,0.000113,0.000296,4.72e-05
11.442,7.72e-05,0.000258,2.16e-05
11.416,7.75e-05,0.000257,2.2e-05
11.39,0.000103,0.000286,3.93e-05
11.364,0.000111,0.000294,4.43e-05
11.338,0.000105,0.000287,3.99e-05
11.312,0.000119,0.000302,5.08e-05
11.287,0.000127,0.000306,5.82e-05
11.261,0.000135,0.000317,6.29e-05
11.236,0.000108,0.00029,4.22e-05
11.211,8.33e-05,0.000258,2.71e-05
11.186,7.05e-05,0.000241,1.96e-05
11.161,7.45e-05,0.000246,2.19e-05
11.136,7.8e-05,0.00025,2.41e-05
11.111,7.11e-05,0.000239,2.04e-05
11.086,6.91e-05,0.000236,1.95e-05
11.062,7.63e-05,0.000244,2.42e-05
11.038,9.26e-05,0.000263,3.48e-05
11.013,0.000128,0.0003,6.13e-05
10.989,0.000121,0.000291,5.76e-05
10.965,7.79e-05,0.000243,2.63e-05
10.941,8.12e-05,0.000247,2.86e-05
10.917,7.78e-05,0.000241,2.68e-05
10.893,8.3e-05,0.000247,3.01e-05
10.87,9.62e-05,0.000261,4.02e-05
10.846,0.000127,0.000294,6.24e-05
10.823,0.000119,0.000286,5.65e-05
10.799,9.98e-05,0.000262,4.33e-05
10.776,7.48e-05,0.000233,2.69e-05
10.753,7.53e-05,0.000232,2.79e-05
10.73,7.12e-05,0.000224,2.62e-05
10.707,7.03e-05,0.000222,2.61e-05
10.684,7.11e-05,0.000222,2.7e-05
10.661,7.16e-05,0.000221,2.78e-05
10.638,7.96e-05,0.000229,3.43e-05
10.616,8.37e-05,0.000232,3.88e-05
10.593,8.34e-05,0.000231,3.81e-05
10.571,0.000102,0.000251,5.14e-05
10.549,0.000132,0.000282,7.53e-05
10.526,9.28e-05,0.000237,4.67e-05
10.504,8.41e-05,0.000229,3.82e-05
10.482,0.000102,0.000252,4.95e-05
10.46,9.24e-05,0.000239,4.3e-05
10.438,7.33e-05,0.000216,2.92e-05
10.417,7.17e-05,0.000217,2.59e-05
10.395,6.25e-05,0.000202,2.11e-05
10.373,6.45e-05,0.0002,2.51e-05
10.352,8.07e-05,0.000219,3.7e-05
10.331,8.06e-05,0.000215,3.91e-05
10.309,9.05e-05,0.000227,4.62e-05
10.288,0.000117,0.00026,6.39e-05
10.267,0.000114,0.000254,6.15e-05
10.246,0.000119,0.000258,6.66e-05
10.225,9.18e-05,0.000223,4.86e-05
10.204,7.17e-05,0.000197,3.55e-05
10.183,7.43e-05,0.000199,3.75e-05
10.163,7.22e-05,0.000197,3.47e-05
10.142,6.4e-05,0.000185,2.91e-05
10.121,6.38e-05,0.000183,3.01e-05
10.101,6.67e-05,0.000186,3.28e-05
10.081,6.87e-05,0.000185,3.58e-05
10.06,7.22e-05,0.000187,3.97e-05
10.04,7.77e-05,0.000191,4.56e-05
10.02,9.76e-05,0.000215,6.04e-05
10.0,0.000114,0.000234,7.26e-05
9.98,0.000109,0.000222,7.46e-05
9.96,0.00012,0.000233,8.44e-05
9.94,0.000122,0.000228,9.09e-05
9.921,0.000131,0.000234,9.87e-05
9.901,0.000168,0.00028,0.000126
9.881,0.00018,0.000288,0.000139
9.862,0.000196,0.0003,0.000155
9.843,0.000189,0.000292,0.000151
9.823,0.000203,0.000306,0.000164
9.804,0.000191,0.000282,0.000162
9.785,0.000189,0.000274,0.000165
9.766,0.00019,0.000272,0.000167
9.747,0.000197,0.000282,0.000171
9.728,0.000241,0.00034,0.000199
9.709,0.000242,0.000342,0.000201
9.69,0.000206,0.000294,0.000177
9.671,0.000194,0.000273,0.000171
9.653,0.000199,0.000276,0.000178
9.634,0.000223,0.000304,0.000196
9.615,0.000226,0.000308,0.0002
9.597,0.000163,0.000247,0.000137
9.579,0.000124,0.000211,9.8e-05
9.56,0.000161,0.000238,0.00014
9.542,0.000222,0.000298,0.000198
9.524,0.000263,0.000343,0.000234
9.506,0.000263,0.000334,0.000239
9.488,0.000262,0.000327,0.000242
9.47,0.000269,0.000338,0.000246
9.452,0.000246,0.000319,0.000222
9.434,0.000229,0.000309,0.000199
9.416,0.000198,0.000281,0.000168
9.398,0.000185,0.000274,0.000149
9.381,0.000211,0.000313,0.00016
9.363,0.000137,0.00023,0.000101
9.346,8.31e-05,0.000165,6.01e-05
9.328,0.000107,0.000201,7.13e-05
9.311,0.000157,0.000266,0.000105
9.294,0.000115,0.000209,7.94e-05
9.276,7.56e-05,0.000158,5.19e-05
9.259,8.15e-05,0.000163,5.84e-05
9.242,7.74e-05,0.000159,5.41e-05
9.225,7.17e-05,0.000158,4.5e-05
9.208,7.4e-05,0.000161,4.64e-05
9.191,6.34e-05,0.000147,3.86e-05
9.174,0.000104,0.000201,6.47e-05
9.158,0.000103,0.000203,6.21e-05
9.141,4.77e-05,0.000131,2.38e-05
9.124,4.19e-05,0.000123,1.96e-05
9.107,6.86e-05,0.00016,3.64e-05
9.091,0.000163,0.00028,0.0001
9.074,0.000124,0.000231,7.29e-05
9.058,5.42e-05,0.000145,2.49e-05
9.042,0.00013,0.000237,7.98e-05
9.025,0.000123,0.000225,7.59e-05
9.009,8.98e-05,0.00019,4.94e-05
8.993,0.00015,0.000258,9.36e-05
8.977,7.6e-05,0.000165,4.26e-05
8.961,4.83e-05,0.000133,2.21e-05
8.945,6.33e-05,0.000156,3.09e-05
8.929,0.000152,0.000257,9.81e-05
8.913,0.000154,0.00026,9.91e-05
8.897,5.29e-05,0.000139,2.55e-05
8.881,4.28e-05,0.000122,1.99e-05
8.865,4.09e-05,0.000119,1.85e-05
8.85,4.41e-05,0.000125,2.01e-05
8.834,5.21e-05,0.000139,2.38e-05
8.818,0.000166,0.000284,0.000104
8.803,0.000355,0.000486,0.000256
8.787,0.000208,0.000323,0.000139
8.772,5.75e-05,0.000149,2.56e-05
8.757,5.04e-05,0.000136,2.2e-05
8.741,4.16e-05,0.000122,1.74e-05
8.726,4.06e-05,0.00012,1.68e-05
8.711,0.000124,0.000222,7.66e-05
8.696,0.000184,0.000301,0.000117
8.681,0.000194,0.000312,0.000124
8.666,0.0001,0.000197,5.66e-05
8.651,4.06e-05,0.000119,1.68e-05
8.636,3.71e-05,0.000113,1.51e-05
8.621,3.97e-05,0.000117,1.69e-05
8.606,4.79e-05,0.000131,2.08e-05
8.591,0.000172,0.000282,0.000109
8.576,0.000217,0.000339,0.000138
8.562,7.7e-05,0.000172,3.84e-05
8.547,5.98e-05,0.000151,2.67e-05
8.532,0.000137,0.000249,7.88e-05
8.518,0.000372,0.000493,0.00027
8.503,0.000276,0.000393,0.000197
8.489,8.24e-05,0.000188,3.86e-05
8.475,7.57e-05,0.000173,3.6e-05
8.46,6.82e-05,0.000161,3.21e-05
8.446,8.08e-05,0.000185,3.78e-05
8.432,0.000258,0.000381,0.000179
8.418,0.000308,0.00044,0.000212
8.403,0.000125,0.000243,6.59e-05
8.389,8.11e-05,0.000181,4.02e-05
8.375,7.49e-05,0.000172,3.6e-05
8.361,0.000133,0.000238,8.25e-05
8.347,0.000278,0.0004,0.000195
8.333,0.000168,0.000283,0.000105
8.319,5.67e-05,0.000142,2.78e-05
8.306,6.22e-05,0.00015,3e-05
8.292,9.73e-05,0.000204,4.89e-05
8.278,9.77e-05,0.000208,4.88e-05
8.264,0.000254,0.000367,0.000182
8.251,0.000451,0.00056,0.000345
8.237,0.000277,0.000407,0.000183
8.224,0.000144,0.000269,8.11e-05
8.21,0.000259,0.000385,0.000179
8.197,0.000293,0.000418,0.000208
8.183,0.000206,0.00034,0.00013
8.17,0.000352,0.000471,0.000264
8.157,0.000407,0.000512,0.000314
8.143,0.000192,0.000304,0.00013
8.13,0.00012,0.000209,8.5e-05
8.117,7.38e-05,0.00016,4.37e-05
8.104,8.53e-05,0.000174,5.26e-05
8.091,0.000178,0.000275,0.000131
8.078,0.000247,0.000359,0.00018
8.065,0.000241,0.000364,0.000167
8.052,0.000312,0.000425,0.000237
8.039,0.000484,0.000574,0.000391
8.026,0.000355,0.000453,0.000282
8.013,0.000253,0.000359,0.000197
8.0,0.000237,0.000351,0.00017
7.987,0.000282,0.000407,0.000199
7.974,0.000296,0.000414,0.000225
7.962,0.000262,0.000396,0.000181
7.949,0.000396,0.000518,0.000297
7.937,0.000584,0.00064,0.000512
7.924,0.000491,0.000576,0.000415
7.911,0.000464,0.000565,0.000371
7.899,0.000584,0.000645,0.0005
7.886,0.000646,0.000672,0.000588
7.874,0.000661,0.000677,0.000618
7.862,0.000606,0.000651,0.000537
7.849,0.000414,0.000524,0.000316
7.837,0.000281,0.000398,0.000216
7.825,0.000257,0.000378,0.00019
7.813,0.000407,0.00051,0.000316
7.8,0.000463,0.000552,0.000381
7.788,0.000453,0.000556,0.000357
7.776,0.000515,0.000605,0.000418
7.764,0.000606,0.000646,0.000549
7.752,0.000534,0.000613,0.000444
7.74,0.000435,0.000547,0.000336
7.728,0.000415,0.000522,0.000332
7.716,0.000523,0.000586,0.000459
7.704,0.000451,0.00053,0.000393
7.692,0.000373,0.000467,0.00032
7.68,0.000452,0.000516,0.000418
7.669,0.000549,0.000583,0.000528
7.657,0.000591,0.000625,0.000552
7.645,0.000588,0.000633,0.000511
7.634,0.000561,0.000625,0.000458
7.622,0.000606,0.000638,0.000555
7.61,0.000645,0.000649,0.000633
7.599,0.000644,0.000648,0.000633
7.587,0.000644,0.000647,0.000638
7.576,0.000634,0.000642,0.000617
7.564,0.000599,0.000631,0.000539
7.553,0.000535,0.000608,0.000423
7.541,0.000512,0.000595,0.000402
7.53,0.000556,0.000611,0.000466
7.519,0.000535,0.000604,0.000436
7.508,0.000532,0.0006,0.000445
7.496,0.000577,0.000618,0.000495
7.485,0.000611,0.000628,0.00057
7.474,0.000631,0.000633,0.000627
7.463,0.00063,0.000632,0.000625
7.452,0.000611,0.000624,0.000581
7.44,0.00057,0.000611,0.000488
7.429,0.000557,0.000606,0.000467
7.418,0.000586,0.000612,0.000534
7.407,0.000592,0.000613,0.000548
7.396,0.000575,0.000608,0.000512
7.386,0.000595,0.000612,0.000558
7.375,0.000599,0.000612,0.00056
7.364,0.000597,0.00061,0.000556
7.353,0.000607,0.000612,0.000589
7.342,0.000612,0.000614,0.000608
7.331,0.000608,0.000612,0.000598
7.321,0.000598,0.000606,0.000566
7.31,0.0006,0.000606,0.000579
7.299,0.000601,0.000605,0.000592
7.289,0.000601,0.000604,0.000594
7.278,0.000603,0.000605,0.000601
7.267,0.0006,0.000602,0.000595
7.257,0.000595,0.000598,0.000587
7.246,0.000589,0.000595,0.000567
7.236,0.000583,0.000592,0.000549
7.225,0.000585,0.000591,0.00056
7.215,0.000591,0.000593,0.000583
7.205,0.000591,0.000593,0.000589
7.194,0.000587,0.00059,0.000582
7.184,0.000586,0.000588,0.000581
7.174,0.000587,0.000588,0.000585
7.163,0.000586,0.000587,0.000584
7.153,0.000584,0.000585,0.000582
7.143,0.000581,0.000583,0.000578
7.133,0.000578,0.00058,0.000572
7.123,0.000577,0.000579,0.000573
7.112,0.000573,0.000576,0.000565
7.102,0.000568,0.000573,0.000553
7.092,0.000568,0.000572,0.000559
7.082,0.000567,0.00057,0.000558
7.072,0.000565,0.000569,0.000555
7.062,0.000567,0.000569,0.000563
7.052,0.000569,0.000569,0.000567
7.042,0.000567,0.000568,0.000566
7.032,0.000564,0.000566,0.000562
7.022,0.000562,0.000563,0.000559
7.013,0.000558,0.00056,0.000554
7.003,0.000557,0.000559,0.000553
6.993,0.000556,0.000558,0.000554
6.983,0.000554,0.000556,0.000551
6.974,0.000553,0.000555,0.000551
6.964,0.000554,0.000554,0.000553
6.954,0.000551,0.000552,0.000549
6.944,0.000546,0.000549,0.000541
6.935,0.000542,0.000546,0.000535
6.925,0.000541,0.000544,0.000534
6.916,0.000542,0.000544,0.000539
6.906,0.000541,0.000543,0.000539
6.897,0.000539,0.000541,0.000536
6.887,0.000538,0.00054,0.000535
6.878,0.000538,0.000539,0.000536
6.868,0.000537,0.000538,0.000537
6.859,0.000536,0.000536,0.000535
6.849,0.000533,0.000534,0.000532
6.84,0.00053,0.000532,0.000528
6.831,0.000529,0.00053,0.000528
6.821,0.000527,0.000529,0.000525
6.812,0.000525,0.000527,0.000522
6.803,0.000524,0.000525,0.000521
6.793,0.000523,0.000524,0.000522
6.784,0.000522,0.000523,0.000521
6.775,0.00052,0.000521,0.000518
6.766,0.000517,0.000518,0.000514
6.757,0.000514,0.000516,0.000511
6.748,0.000513,0.000514,0.00051
6.739,0.000511,0.000513,0.000508
6.729,0.00051,0.000512,0.000508
6.72,0.00051,0.00051,0.000509
6.711,0.000509,0.000509,0.000508
6.702,0.000506,0.000507,0.000504
6.693,0.000504,0.000505,0.000502
6.684,0.000503,0.000504,0.000502
6.676,0.000502,0.000502,0.000501
6.667,0.0005,0.000501,0.000499
6.658,0.000498,0.000499,0.000496
6.649,0.000497,0.000497,0.000496
6.64,0.000495,0.000495,0.000495
6.631,0.000494,0.000494,0.000494
6.623,0.000492,0.000492,0.000491
6.614,0.00049,0.000491,0.000489
6.605,0.000489,0.000489,0.000488
6.596,0.000487,0.000487,0.000486
6.588,0.000486,0.000485,0.000485
6.579,0.000484,0.000484,0.000484
6.57,0.000482,0.000482,0.000482
6.562,0.000481,0.000481,0.00048
6.553,0.000479,0.000479,0.000478
6.545,0.000477,0.000477,0.000476
6.536,0.000475,0.000476,0.000473
6.527,0.000474,0.000474,0.000473
6.519,0.000473,0.000472,0.000472
6.51,0.000471,0.000471,0.00047
6.502,0.000469,0.000469,0.000469
6.494,0.000467,0.000467,0.000467
6.485,0.000466,0.000466,0.000466
6.477,0.000464,0.000464,0.000464
6.468,0.000462,0.000463,0.000461
6.46,0.00046,0.000461,0.000459
6.452,0.000459,0.000459,0.000457
6.443,0.000457,0.000458,0.000456
6.435,0.000456,0.000456,0.000455
6.427,0.000454,0.000454,0.000454
6.418,0.000453,0.000453,0.000453
6.41,0.000451,0.000451,0.000451
6.402,0.000449,0.000449,0.000449
6.394,0.000448,0.000448,0.000446
6.386,0.000445,0.000446,0.000444
6.378,0.000444,0.000445,0.000443
6.369,0.000442,0.000443,0.000442
6.361,0.000441,0.000441,0.000439
6.353,0.000439,0.00044,0.000438
6.345,0.000437,0.000438,0.000437
6.337,0.000436,0.000436,0.000435
6.329,0.000433,0.000434,0.00043
6.321,0.00043,0.000432,0.000427
6.313,0.000427,0.00043,0.000423
6.305,0.000425,0.000428,0.00042
6.297,0.000423,0.000426,0.000419
6.289,0.000423,0.000425,0.000419
6.281,0.000421,0.000423,0.000418
6.274,0.00042,0.000422,0.000418
6.266,0.000419,0.000421,0.000416
6.258,0.000415,0.000418,0.00041
6.25,0.000414,0.000417,0.000409
6.242,0.000414,0.000416,0.000411
6.234,0.000412,0.000414,0.000409
6.227,0.000411,0.000413,0.000408
6.219,0.00041,0.000412,0.000408
6.211,0.000409,0.00041,0.000406
6.203,0.000407,0.000409,0.000404
6.196,0.000407,0.000408,0.000405
6.188,0.000406,0.000406,0.000405
6.18,0.000404,0.000405,0.000403
6.173,0.000403,0.000404,0.000401
6.165,0.000401,0.000402,0.0004
6.158,0.0004,0.0004,0.000399
6.15,0.000398,0.000399,0.000397
6.143,0.000396,0.000397,0.000395
6.135,0.000394,0.000395,0.000392
6.127,0.000393,0.000394,0.000391
6.12,0.000392,0.000393,0.000392
6.112,0.000391,0.000391,0.000391
6.105,0.000389,0.00039,0.000388
6.098,0.000387,0.000388,0.000385
6.09,0.000385,0.000387,0.000384
6.083,0.000385,0.000385,0.000383
6.075,0.000384,0.000384,0.000383
6.068,0.000382,0.000382,0.000382
6.061,0.000381,0.000381,0.00038
6.053,0.000379,0.000379,0.000379
6.046,0.000378,0.000378,0.000378
6.039,0.000376,0.000376,0.000375
6.031,0.000374,0.000375,0.000372
6.024,0.000372,0.000373,0.00037
6.017,0.000371,0.000372,0.00037
6.01,0.000369,0.00037,0.000368
6.002,0.000368,0.000369,0.000366
5.995,0.000367,0.000367,0.000366
5.988,0.000366,0.000366,0.000366
5.981,0.000364,0.000365,0.000363
5.974,0.000363,0.000363,0.000362
5.967,0.000361,0.000362,0.000361
5.959,0.000359,0.00036,0.000358
5.952,0.000358,0.000359,0.000357
5.945,0.000357,0.000357,0.000356
5.938,0.000356,0.000356,0.000355
5.931,0.000354,0.000354,0.000354
5.924,0.000352,0.000353,0.000351
5.917,0.000351,0.000352,0.00035
5.91,0.000349,0.00035,0.000348
5.903,0.000348,0.000348,0.000347
5.896,0.000347,0.000347,0.000347
5.889,0.000346,0.000346,0.000346
5.882,0.000344,0.000344,0.000344
5.875,0.000343,0.000343,0.000342
5.869,0.000341,0.000341,0.00034
5.862,0.00034,0.00034,0.000339
5.855,0.000338,0.000338,0.000336
5.848,0.000336,0.000337,0.000334
5.841,0.000335,0.000336,0.000333
5.834,0.000334,0.000334,0.000333
5.828,0.000333,0.000333,0.000332
5.821,0.000331,0.000332,0.000331
5.814,0.000329,0.00033,0.000328
5.807,0.000327,0.000328,0.000326
5.8,0.000325,0.000327,0.000323
5.794,0.000323,0.000325,0.000321
5.787,0.000323,0.000324,0.000321
5.78,0.000323,0.000323,0.000321
5.774,0.000322,0.000322,0.000321
5.767,0.000321,0.000321,0.00032
5.76,0.000319,0.000319,0.000318
5.754,0.000317,0.000318,0.000316
5.747,0.000316,0.000316,0.000315
5.741,0.000314,0.000315,0.000313
5.734,0.000313,0.000314,0.000312
5.727,0.000312,0.000312,0.00031
5.721,0.000311,0.000311,0.00031
5.714,0.00031,0.00031,0.000309
5.708,0.000308,0.000308,0.000307
5.701,0.000305,0.000306,0.000303
5.695,0.000304,0.000305,0.000303
5.688,0.000303,0.000304,0.000301
5.682,0.000302,0.000303,0.0003
5.675,0.000301,0.000301,0.000299
5.669,0.000298,0.0003,0.000296
5.663,0.000297,0.000298,0.000294
5.656,0.000297,0.000298,0.000295
5.65,0.000296,0.000297,0.000295
5.643,0.000295,0.000295,0.000294
5.637,0.000293,0.000294,0.000292
5.631,0.000291,0.000292,0.00029
5.624,0.000289,0.000291,0.000287
5.618,0.000289,0.00029,0.000287
5.612,0.000287,0.000288,0.000285
5.605,0.000285,0.000287,0.000283
5.599,0.000283,0.000285,0.000279
5.593,0.000281,0.000283,0.000278
5.587,0.000282,0.000283,0.000281
5.58,0.000282,0.000282,0.000281
5.574,0.00028,0.000281,0.000279
5.568,0.000279,0.00028,0.000277
5.562,0.000277,0.000278,0.000275
5.556,0.000276,0.000277,0.000275
5.549,0.000274,0.000275,0.000272
5.543,0.000271,0.000273,0.000266
5.537,0.000269,0.000271,0.000264
5.531,0.000269,0.000271,0.000266
5.525,0.000269,0.00027,0.000267
5.519,0.000267,0.000269,0.000263
5.513,0.000262,0.000266,0.000247
5.507,0.000259,0.000264,0.000244
5.501,0.000257,0.000262,0.000239
5.495,0.000255,0.000261,0.000234
5.488,0.000259,0.000262,0.000251
5.482,0.000261,0.000262,0.000259
5.476,0.00026,0.000261,0.000259
5.47,0.000259,0.00026,0.000258
5.464,0.000259,0.000259,0.000258
5.459,0.000256,0.000257,0.000253
5.453,0.000252,0.000255,0.000246
5.447,0.000252,0.000254,0.000247
5.441,0.000251,0.000253,0.000246
5.435,0.000249,0.000251,0.000241
5.429,0.00025,0.000251,0.000246
5.423,0.00025,0.000251,0.00025
5.417,0.000249,0.00025,0.000248
5.411,0.000246,0.000247,0.000241
5.405,0.000238,0.000244,0.000221
5.4,0.000231,0.000241,0.000202
5.394,0.000223,0.000238,0.000184
5.388,0.000221,0.000237,0.000183
5.382,0.000231,0.000238,0.00021
5.376,0.000233,0.000238,0.000219
5.371,0.000229,0.000236,0.000208
5.365,0.000231,0.000236,0.000215
5.359,0.000236,0.000237,0.000232
5.353,0.000237,0.000238,0.000236
5.348,0.000235,0.000236,0.000233
5.342,0.000227,0.000232,0.00021
5.336,0.000209,0.000227,0.000169
5.33,0.000198,0.000222,0.00015
5.325,0.000196,0.000221,0.000152
5.319,0.00019,0.000218,0.000146
5.313,0.000183,0.000215,0.000134
5.308,0.000208,0.000222,0.000182
5.302,0.000217,0.000224,0.000198
5.297,0.000219,0.000224,0.000205
5.291,0.000222,0.000224,0.000218
5.285,0.000217,0.000221,0.000204
5.28,0.000217,0.000221,0.000207
5.274,0.000213,0.000219,0.000199
5.269,0.000184,0.000209,0.000145
5.263,0.000161,0.0002,0.000112
5.258,0.000178,0.000205,0.000138
5.252,0.000197,0.000211,0.000169
5.247,0.000203,0.000212,0.00018
5.241,0.00021,0.000214,0.000203
5.236,0.000209,0.000212,0.0002
5.23,0.000193,0.000207,0.000162
5.225,0.000189,0.000205,0.000154
5.219,0.000201,0.000208,0.000183
5.214,0.000208,0.00021,0.000204
5.208,0.000207,0.000209,0.000202
5.203,0.000206,0.000208,0.000203
5.198,0.0002,0.000205,0.000189
5.192,0.000174,0.000196,0.000137
5.187,0.000141,0.000181,9.4e-05
5.181,0.000122,0.00017,7.63e-05
5.176,0.000153,0.000183,0.000117
5.171,0.000159,0.000185,0.000124
5.165,0.000131,0.000172,8.64e-05
5.16,0.000144,0.000179,9.98e-05
5.155,0.000172,0.000191,0.000142
5.149,0.000194,0.000197,0.000185
5.144,0.000195,0.000197,0.000192
5.139,0.000187,0.000193,0.000177
5.133,0.00016,0.000183,0.000128
5.128,0.00013,0.000168,8.77e-05
5.123,0.000114,0.000157,7.36e-05
5.118,0.000151,0.000174,0.000121
5.112,0.000162,0.000181,0.000133
5.107,0.000125,0.000161,8.81e-05
5.102,0.000128,0.000161,9.38e-05
5.097,0.000139,0.000168,0.000104
5.092,0.000131,0.000164,9.4e-05
5.086,0.000169,0.00018,0.000153
5.081,0.000168,0.000179,0.000152
5.076,0.000114,0.00015,7.93e-05
5.071,6.89e-05,0.000115,3.78e-05
5.066,6.53e-05,0.000108,3.78e-05
5.061,8.67e-05,0.000126,5.73e-05
5.056,6.72e-05,0.000109,3.97e-05
5.051,5.79e-05,9.86e-05,3.26e-05
5.045,6.54e-05,0.000107,3.74e-05
5.04,7.06e-05,0.000114,3.96e-05
5.035,0.000109,0.000142,7.62e-05
5.03,0.000156,0.000168,0.000135
5.025,0.000165,0.000173,0.000149
5.02,0.000169,0.000173,0.000159
5.015,0.000139,0.000159,0.000115
5.01,9.58e-05,0.000134,6.06e-05
5.005,0.000113,0.000143,8.07e-05
5.0,9.41e-05,0.000126,6.66e-05
4.995,5e-05,8.77e-05,2.69e-05
4.99,4.37e-05,7.98e-05,2.29e-05
4.985,7.42e-05,0.000108,4.79e-05
4.98,0.000116,0.000142,8.87e-05
4.975,8.7e-05,0.00012,6.07e-05
4.97,5.27e-05,9.06e-05,2.85e-05
4.965,7.56e-05,0.00011,4.96e-05
4.96,0.000135,0.00015,0.000119
4.955,0.000157,0.000161,0.000146
4.95,0.000121,0.000141,9.56e-05
4.946,9.26e-05,0.000124,6.4e-05
4.941,8.84e-05,0.00012,6.04e-05
4.936,8.38e-05,0.000115,5.77e-05
4.931,6.73e-05,9.57e-05,4.7e-05
4.926,3.09e-05,5.81e-05,1.65e-05
4.921,3.08e-05,5.52e-05,1.77e-05
4.916,4.76e-05,7.42e-05,2.98e-05
4.912,5.03e-05,7.81e-05,3.24e-05
4.907,6.92e-05,9.78e-05,4.78e-05
4.902,9.93e-05,0.000122,7.8e-05
4.897,0.000126,0.000142,0.000104
4.892,9.53e-05,0.000118,7.37e-05
4.888,6.85e-05,9.37e-05,5.05e-05
4.883,5.38e-05,7.42e-05,4.08e-05
4.878,3.72e-05,5.47e-05,2.89e-05
4.873,4.15e-05,5.85e-05,3.3e-05
4.869,4.33e-05,5.98e-05,3.49e-05
4.864,3.85e-05,5.27e-05,3.21e-05
4.859,5.09e-05,6.73e-05,4.19e-05
4.854,7.97e-05,9.96e-05,6.45e-05
4.85,7.53e-05,9.72e-05,5.85e-05
4.845,0.000106,0.00012,9.05e-05
4.84,0.000106,0.00012,9.15e-05
4.836,5.44e-05,7.33e-05,4.27e-05
4.831,3.3e-05,4.76e-05,2.62e-05
4.826,4.54e-05,6.26e-05,3.46e-05
4.822,6.15e-05,8.17e-05,4.67e-05
4.817,6.65e-05,8.05e-05,5.81e-05
4.812,8.53e-05,9.6e-05,7.83e-05
4.808,5.63e-05,7.26e-05,4.58e-05
4.803,3.88e-05,5.51e-05,2.88e-05
4.798,2.61e-05,4.01e-05,1.9e-05
4.794,4.1e-05,5.83e-05,3.01e-05
4.789,6.38e-05,8.62e-05,4.72e-05
4.785,8.01e-05,0.000101,6.25e-05
4.78,5.71e-05,7.7e-05,4.22e-05
4.776,3.51e-05,5.18e-05,2.59e-05
4.771,3.19e-05,4.81e-05,2.21e-05
4.766,3.18e-05,4.75e-05,2.2e-05
4.762,3.29e-05,4.82e-05,2.3e-05
4.757,1.98e-05,3.19e-05,1.34e-05
4.753,1.78e-05,2.89e-05,1.2e-05
4.748,3.34e-05,4.85e-05,2.31e-05
4.744,2.83e-05,4.24e-05,1.95e-05
4.739,1.43e-05,2.39e-05,9.8e-06
4.735,1.92e-05,3.02e-05,1.31e-05
4.73,5.98e-05,7.58e-05,4.55e-05
4.726,5.54e-05,7.25e-05,4.12e-05
4.721,1.7e-05,2.79e-05,1.13e-05
4.717,1.88e-05,2.97e-05,1.28e-05
4.713,2.78e-05,4.38e-05,1.79e-05
4.708,3.24e-05,4.89e-05,2.14e-05
4.704,2.06e-05,3.12e-05,1.41e-05
4.699,1.17e-05,1.82e-05,9.13e-06
4.695,1.41e-05,2.11e-05,1.13e-05
4.69,8.63e-06,1.58e-05,5.66e-06
4.686,1.46e-05,2.3e-05,1.01e-05
4.682,5.03e-05,6.51e-05,3.74e-05
4.677,5.94e-05,7.84e-05,4.25e-05
4.673,3.31e-05,4.87e-05,2.21e-05
4.669,1.14e-05,2.15e-05,6.35e-06
4.664,2.16e-05,3.27e-05,1.45e-05
4.66,3.38e-05,4.98e-05,2.24e-05
4.655,2.25e-05,3.64e-05,1.38e-05
4.651,1.13e-05,2.06e-05,6.56e-06
4.647,1.83e-05,2.89e-05,1.2e-05
4.643,1.79e-05,2.81e-05,1.19e-05
4.638,1.41e-05,2.4e-05,8.61e-06
4.634,1.18e-05,2e-05,7.41e-06
4.63,1.6e-05,2.53e-05,1.06e-05
4.625,3.44e-05,4.8e-05,2.44e-05
4.621,2.02e-05,2.94e-05,1.42e-05
4.617,7.49e-06,1.3e-05,5.11e-06
4.613,6.42e-06,1.09e-05,4.57e-06
4.608,1.1e-05,1.73e-05,7.56e-06
4.604,1.35e-05,2.15e-05,8.94e-06
4.6,7.83e-06,1.3e-05,5.49e-06
4.596,6.59e-06,1.07e-05,4.89e-06
4.591,6.31e-06,1.02e-05,4.76e-06
4.587,1.26e-05,1.91e-05,8.91e-06
4.583,1.23e-05,1.85e-05,8.77e-06
4.579,1.08e-05,1.7e-05,7.52e-06
4.575,1.98e-05,2.93e-05,1.37e-05
4.57,1.7e-05,2.5e-05,1.21e-05
4.566,8.64e-06,1.36e-05,6.39e-06
4.562,9.5e-06,1.47e-05,7.01e-06
4.558,1.06e-05,1.6e-05,7.86e-06
4.554,7.08e-06,1.01e-05,5.88e-06
4.55,9.75e-06,1.43e-05,7.54e-06
4.545,1.38e-05,1.99e-05,1.03e-05
